t,Ax,Ay,Az,aT
0.005262,-0.6995,0.0233,-0.1774,0.72
0.009857,-0.6395,-0.0306,0.0897,0.65
0.025845,-0.307,-0.1573,0.6179,0.71
0.031301,-0.2453,-0.1579,0.5869,0.66
0.039484,-0.1908,-0.1741,0.5203,0.58
0.056629,0.0575,-0.2259,0.3495,0.42
0.064851,0.1397,-0.2391,0.2618,0.38
0.071296,0.1485,-0.1971,0.1359,0.28
0.079377,0.0713,-0.1112,0.0267,0.13
0.094769,-0.1026,-0.0166,-0.257,0.28
0.104044,-0.1634,-0.0198,-0.3336,0.37
0.112407,-0.2351,-0.0438,-0.2955,0.38
0.120697,-0.2663,-0.0408,-0.248,0.37
0.128687,-0.256,-0.0301,-0.1624,0.3
0.143364,-0.0517,-0.0125,0.09,0.1
0.154395,-0.0005,-0.0541,0.2307,0.24
0.16222,0.0573,-0.1168,0.2974,0.32
0.175429,0.0565,-0.1335,0.3238,0.35
0.183452,0.0238,-0.0708,0.3121,0.32
0.191456,-0.0125,-0.0247,0.2647,0.27
0.199107,0.0054,-0.0188,0.2007,0.2
0.215762,-0.0363,0.0292,0.2431,0.25
0.224493,-0.0577,-0.0213,0.3304,0.34
0.231827,-0.0909,-0.0398,0.3245,0.34
0.239496,-0.1559,-0.0141,0.1632,0.23
0.255125,-0.3534,-0.007,-0.3388,0.49
0.26371,-0.4227,-0.0695,-0.5817,0.72
0.271762,-0.4536,-0.1361,-0.6791,0.83
0.279874,-0.4373,-0.1665,-0.6334,0.79
0.287935,-0.3925,-0.1219,-0.4492,0.61
0.303143,-0.0215,0.2006,0.803,0.83
0.313851,0.1564,0.3289,1.2375,1.29
0.324506,0.1644,0.4402,1.3186,1.4
0.331877,0.1317,0.4048,1.2048,1.28
0.343392,0.1135,0.118,0.5882,0.61
0.354192,-0.0459,-0.1525,0.0036,0.16
0.359702,-0.2394,-0.4069,-0.4943,0.68
0.367805,-0.3357,-0.5297,-0.5491,0.83
0.383704,-0.0076,-0.369,-0.0254,0.37
0.391668,0.0185,-0.2041,0.3476,0.4
0.399878,0.0343,0.2535,1.3177,1.34
0.415941,0.1236,0.512,1.765,1.84
0.424216,-0.3255,1.0323,1.5601,1.9
0.432291,-0.2298,0.9041,1.2129,1.53
0.440126,-0.1228,0.9117,1.2205,1.53
0.455413,-0.6383,0.5628,0.5595,1.02
0.46328,-0.7893,-0.261,-0.2905,0.88
0.471618,-0.9006,-1.1132,-1.2222,1.88
0.479827,-1.0384,-1.5685,-1.6447,2.5
0.48949,-1.1121,-1.7797,-1.7492,2.73
0.503694,-0.8238,-0.7837,-1.2065,1.66
0.515204,-0.7245,-0.0285,-0.7543,1.05
0.522928,-0.4353,0.4401,-0.401,0.74
0.530839,-0.1128,0.6261,-0.0979,0.64
0.539316,0.2234,0.2296,-0.3814,0.5
0.551684,0.2026,-0.656,-1.4764,1.63
0.563769,-0.1955,-0.7352,-1.8905,2.04
0.576011,-0.88,-0.0784,-1.9595,2.15
0.58389,-0.8034,-0.1289,-1.6729,1.86
0.592077,-0.8488,0.0597,-1.2496,1.51
0.600124,-0.5191,-0.1194,-0.8748,1.02
0.60799,-0.3121,-0.1153,-0.4788,0.58
0.62418,0.3429,0.0301,0.3127,0.47
0.632141,0.8033,-0.0039,0.7119,1.07
0.640285,0.9655,-0.047,0.7372,1.22
0.648204,0.7508,0.0803,0.6044,0.97
0.663855,0.1693,0.0786,0.4222,0.46
0.672094,0.0349,0.0535,0.1298,0.14
0.680964,0.2142,-0.0208,-0.2609,0.34
0.688088,0.3648,-0.0306,-0.5853,0.69
0.703865,0.1767,-0.147,-1.169,1.19
0.715391,-0.3854,-0.0689,-1.0596,1.13
0.721998,-0.905,0.0497,-0.9414,1.31
0.731019,-1.5755,-0.3349,-0.742,1.77
0.739881,-1.9801,-0.5071,-0.3916,2.08
0.752182,-1.043,0.03,-0.3512,1.1
0.762643,-0.221,0.1089,-0.7572,0.8
0.772386,0.6374,0.2545,-0.9978,1.21
0.783898,1.4695,0.1528,-1.0466,1.81
0.791763,1.429,0.0721,-1.0669,1.78
0.799754,1.1955,-0.1032,-1.3698,1.82
0.80794,0.8988,-0.1755,-1.8574,2.07
0.823688,-0.4567,0.2581,-3.1509,3.19
0.833068,-1.3393,0.5087,-3.5961,3.87
0.840415,-2.0427,0.5906,-3.7844,4.34
0.848959,-2.4151,0.4824,-3.6692,4.42
0.863939,-1.1294,-0.2405,-4.4041,4.55
0.874248,0.0444,-0.6528,-4.4215,4.47
0.880617,0.4843,-0.28,-4.3763,4.41
0.888064,1.1757,0.3456,-3.9463,4.13
0.904121,1.6971,0.2535,-3.1952,3.63
0.913306,1.4941,-0.2035,-2.3517,2.79
0.923089,0.8437,-0.4094,-1.7714,2
0.931464,-0.0001,-0.8246,-1.6483,1.84
0.939404,-0.3526,-1.2507,-1.9727,2.36
0.953667,-0.3166,-1.5263,-2.7259,3.14
0.964959,-0.0862,-1.3154,-2.4812,2.81
0.976655,0.3112,-0.9934,-1.1738,1.57
0.983534,0.6731,-1.025,-0.6505,1.39
0.992301,0.868,-1.2019,-0.2224,1.5
1.000185,0.4761,-2.4418,-0.6304,2.57
1.007826,0.764,-1.5569,-0.4024,1.78
1.024185,0.7427,-0.7889,-1.5362,1.88
1.031561,1.0402,-1.3007,-2.2673,2.81
1.040424,0.8401,-1.4486,-2.7104,3.19
1.052677,0.4206,-1.6485,-2.7721,3.25
1.06552,0.8647,-2.0735,-1.5587,2.73
1.071581,0.9952,-2.1394,-0.9425,2.54
1.079904,1.2677,-2.3612,-0.4692,2.72
1.087996,1.6027,-2.4017,0.1161,2.89
1.103721,2.4399,-2.0816,0.5334,3.25
1.112227,2.6593,-1.7959,0.347,3.23
1.122147,2.5495,-1.3902,-0.0934,2.91
1.129366,2.427,-1.1898,-0.2467,2.71
1.143906,2.3982,-1.1511,-0.2163,2.67
1.154443,2.369,-1.1192,0.1484,2.62
1.163065,2.248,-0.9893,0.6129,2.53
1.171337,2.1288,-1.1023,1.0559,2.62
1.183627,1.7897,-0.748,2.3203,3.02
1.191724,0.9255,-0.0256,2.4287,2.6
1.200574,0.604,0.0307,1.9827,2.07
1.207941,0.7014,0.0723,1.1769,1.37
1.224085,1.3126,1.0287,-0.0088,1.67
1.232036,1.5303,1.5079,0.187,2.16
1.239471,1.7695,1.4459,1.2554,2.61
1.248391,1.9434,1.3704,2.4419,3.41
1.264152,1.1426,1.6798,4.1327,4.61
1.272494,0.3974,2.0412,4.5768,5.03
1.280335,0.0131,2.2752,4.5588,5.1
1.288186,0.0484,2.3064,4.1843,4.78
1.304056,0.7116,2.1195,2.9882,3.73
1.315745,1.6212,2.3921,2.2426,3.66
1.321231,2.1661,2.3371,2.4468,4.02
1.329971,2.3152,1.8851,3.0032,4.23
1.343191,1.1823,1.2046,4.1715,4.5
1.355224,1.104,1.6143,4.2993,4.72
1.364224,1.2856,1.9664,3.7509,4.43
1.368263,0.9333,1.8316,2.916,3.57
1.383655,-0.8701,1.3151,1.5353,2.2
1.391639,-2.1331,0.8988,1.4205,2.72
1.39947,-3.2891,0.5361,1.2179,3.55
1.408044,-3.9024,0.4375,0.903,4.03
1.424353,-4.668,0.1727,0.1147,4.67
1.432087,-5.2008,0.4207,-0.1686,5.22
1.440302,-5.5926,0.8399,-0.3195,5.66
1.456087,-5.3568,0.3887,-1.2306,5.51
1.464436,-5.135,0.2213,-1.6709,5.4
1.472656,-4.6223,0.1007,-2.1067,5.08
1.48018,-4.1795,0.001,-2.35,4.79
1.487804,-3.8192,-0.3806,-2.4631,4.56
1.503478,-3.9983,-1.0539,-2.2878,4.73
1.515605,-4.1923,-1.1359,-2.0923,4.82
1.52208,-4.1232,-1.3695,-2.022,4.79
1.530772,-3.9131,-1.5737,-2.1107,4.72
1.539437,-3.7411,-1.6969,-2.2057,4.66
1.552765,-3.2015,-1.5455,-1.7668,3.97
1.562716,-2.7025,-1.5541,-1.359,3.4
1.572656,-2.2572,-1.7507,-1.1552,3.08
1.580253,-1.8581,-1.932,-0.9959,2.86
1.591953,-0.7765,-1.449,-0.3658,1.68
1.599235,-0.179,-1.4724,-0.2677,1.51
1.615895,0.8705,-1.3475,-0.5467,1.69
1.623975,1.2772,-1.2082,-0.665,1.88
1.632503,1.9108,-0.9549,-0.6107,2.22
1.639882,2.074,-1.154,-0.4452,2.41
1.647762,2.4283,-1.3379,-0.4412,2.81
1.664151,3.2746,-0.2452,0.3428,3.3
1.672213,3.823,0.3022,0.6168,3.88
1.680553,4.4446,0.4045,0.891,4.55
1.688488,5.0296,0.4118,0.9615,5.14
1.703001,6.3259,0.6521,0.8195,6.41
1.712277,6.9125,1.1535,0.8881,7.06
1.721474,7.3371,1.8049,1.0341,7.63
1.729514,7.9459,2.2277,1.2051,8.34
1.738587,8.4428,2.216,1.3438,8.83
1.748223,8.9562,1.8922,1.5292,9.28
1.76049,9.6949,1.7138,2.0004,10.05
1.776186,9.9961,3.1197,2.6156,10.79
1.784256,10.2231,3.6989,2.5918,11.18
1.792557,10.3062,3.9612,2.4006,11.3
1.800521,10.1472,4.1766,2.0162,11.16
1.815464,9.439,3.6577,1.0944,10.18
1.824021,9.0298,3.0855,0.9198,9.59
1.83402,8.8468,2.8063,1.0326,9.34
1.840647,8.9823,2.7542,1.4064,9.5
1.84843,9.3476,2.7596,1.812,9.91
1.86449,9.8648,2.7227,2.2588,10.48
1.872387,9.8576,2.5147,2.2235,10.41
1.881215,9.5799,2.3626,1.9716,10.06
1.888782,9.1968,2.2802,1.6839,9.62
1.90417,8.9643,0.6173,1.0478,9.05
1.915948,8.1012,0.5122,1.0819,8.19
1.921939,6.5134,1.1841,1.2326,6.73
1.930647,5.237,1.9182,1.2375,5.71
1.939034,4.3129,2.257,1.0109,4.97
1.952223,3.162,2.2397,0.8687,3.97
1.965957,2.8792,1.8837,1.1318,3.62
1.970911,2.7982,1.8311,1.5572,3.69
1.984398,3.3768,1.1893,2.9199,4.62
1.999652,3.7036,0.93,3.5628,5.22
2.000278,3.9352,0.686,3.9815,5.64
2.008061,4.1428,0.5329,4.2224,5.94
2.023975,4.7742,-0.1215,4.0519,6.26
2.032598,4.7358,-0.6862,3.8241,6.13
2.040358,4.2534,-1.2561,3.6274,5.73
2.048151,3.5817,-1.8243,3.4687,5.31
2.064144,3.0597,-3.0518,3.647,5.65
2.072525,3.0181,-3.4621,3.6213,5.85
2.080447,3.2788,-3.7579,3.4418,6.06
2.088794,3.6375,-4.0694,3.0392,6.25
2.104289,4.4485,-4.8305,1.8634,6.83
2.112207,5.0682,-5.262,1.4367,7.45
2.121107,5.5785,-5.4852,1.4262,7.95
2.129178,5.6422,-5.5769,1.5339,8.08
2.138471,5.7796,-5.6701,1.7685,8.29
2.152271,5.3964,-6.0212,1.9916,8.33
2.162571,4.7735,-6.1751,1.8989,8.03
2.172028,3.8125,-6.373,1.4412,7.56
2.179183,3.1582,-6.2856,1.0236,7.11
2.192269,2.4347,-5.9849,0.4872,6.48
2.200252,2.1584,-5.7722,0.4311,6.18
2.208126,1.7379,-5.7189,0.5762,6
2.223648,0.9878,-5.8743,0.7555,6
2.231809,0.9097,-5.9239,0.6587,6.03
2.240354,1.2423,-6.6192,-0.1024,6.74
2.248269,0.8006,-6.0233,-0.9125,6.14
2.264202,1.4188,-5.004,-1.5404,5.42
2.272431,1.4079,-5.5252,-1.5456,5.91
2.280539,1.209,-5.6266,-1.5889,5.97
2.287793,1.0687,-5.4688,-1.6131,5.8
2.304022,0.3824,-5.9072,-1.0637,6.01
2.314707,-0.217,-6.1381,-0.8219,6.2
2.321295,-0.8249,-6.1958,-0.5875,6.28
2.328846,-1.3506,-6.0008,-0.4225,6.17
2.344074,-2.141,-5.2391,-0.2039,5.66
2.353613,-2.5125,-4.899,0.024,5.51
2.363533,-2.7895,-4.7909,0.256,5.55
2.375957,-2.8515,-5.0223,0.1285,5.78
2.384237,-2.8669,-5.1434,-0.0448,5.89
2.391568,-3.0713,-5.3024,-0.2892,6.13
2.400339,-3.1241,-5.6305,-0.5956,6.47
2.408074,-3.1605,-6.0535,-0.9859,6.9
2.424083,-3.8193,-6.2042,-1.4479,7.43
2.432056,-4.5634,-5.9329,-1.5066,7.64
2.439575,-5.4049,-5.6704,-1.4975,7.98
2.448084,-6.4483,-5.3977,-1.4997,8.54
2.463801,-8.3303,-4.909,-1.7216,9.82
2.471946,-8.7811,-4.6632,-1.7953,10.1
2.479966,-8.857,-4.4071,-1.9131,10.08
2.488539,-8.5864,-4.2472,-1.9368,9.77
2.504111,-6.6304,-4.4435,-2.0246,8.23
2.516242,-5.4204,-4.6176,-1.8932,7.37
2.523065,-4.7745,-4.679,-1.7034,6.9
2.530207,-4.5926,-4.7018,-1.5721,6.76
2.537902,-4.5651,-4.8001,-1.501,6.79
2.552483,-4.926,-4.6965,-1.6012,6.99
2.562051,-4.8974,-4.5999,-1.5543,6.9
2.57191,-4.4189,-4.4537,-1.3393,6.42
2.583956,-2.8769,-4.0084,-1.2698,5.09
2.592489,-2.035,-3.8119,-0.907,4.42
2.599618,-1.3127,-3.7546,-0.5859,4.02
2.608785,-0.8934,-3.7317,-0.4524,3.86
2.623987,-0.3591,-3.7416,-0.4643,3.79
2.632103,-0.179,-3.7376,-0.7336,3.81
2.639626,-0.259,-3.7873,-1.2511,4
2.656173,-1.0292,-3.8779,-2.3679,4.66
2.667023,-1.1906,-3.8322,-2.7583,4.87
2.672125,-1.2547,-3.764,-3.1169,5.05
2.680273,-1.4539,-3.8683,-3.3438,5.32
2.688256,-1.3363,-3.342,-3.2362,4.84
2.703939,-0.2444,-1.02,-1.4936,1.83
2.714912,0.197,-0.7473,-1.0669,1.32
2.72104,1.124,-0.6059,-0.9178,1.57
2.729336,1.8188,-1.2822,-0.8481,2.38
2.737887,1.9333,-1.7192,-0.9237,2.75
2.752043,2.0682,-2.2192,-1.3975,3.34
2.763939,2.0151,-2.2595,-1.7265,3.49
2.772097,1.8685,-2.3357,-2.0919,3.65
2.784289,0.9439,-2.9083,-3.4327,4.6
2.791804,0.6669,-3.1561,-4.221,5.31
2.800555,0.5755,-3.2862,-4.9329,5.96
2.816001,0.8515,-3.4328,-5.3687,6.43
2.823826,1.0283,-3.5398,-4.8275,6.07
2.831686,1.3486,-3.722,-4.0979,5.7
2.840159,1.644,-3.9644,-3.5016,5.54
2.848436,1.7801,-4.3008,-2.7817,5.42
2.863428,1.6612,-4.4026,-1.7025,5
2.873624,1.3907,-4.2409,-1.386,4.67
2.879636,0.592,-4.6775,-1.1602,4.86
2.895659,0.6709,-3.8273,-0.7572,3.96
2.905648,0.9617,-3.5971,-0.4521,3.75
2.912384,1.326,-3.2882,-0.2235,3.55
2.921203,1.6689,-3.109,-0.0496,3.53
2.928934,1.7302,-3.0191,0.1425,3.48
2.938775,1.8886,-3.1384,0.3363,3.68
2.951152,2.8433,-3.5949,0.4675,4.61
2.959808,3.1987,-3.6548,0.7505,4.91
2.976059,3.5496,-3.3865,1.2397,5.06
2.984055,3.5871,-3.0158,1.3993,4.89
2.991703,3.582,-2.654,1.5066,4.71
3.000056,3.4371,-2.2696,1.5952,4.42
3.008201,3.1307,-1.8775,1.6983,4.03
3.024052,3.605,-1.1784,1.6996,4.16
3.032227,4.6158,-1.1529,1.805,5.09
3.040311,5.8719,-1.1655,1.9255,6.29
3.04806,6.8708,-0.9264,2.1932,7.27
3.064273,8.3139,0.2646,3.0011,8.84
3.072031,8.5894,1.059,3.5407,9.35
3.080312,8.4524,1.8457,3.9556,9.51
3.087925,8.1151,2.6904,4.3226,9.58
3.104025,7.1442,4.1266,4.7595,9.52
3.112362,6.4503,4.5471,4.6897,9.18
3.120807,5.7767,4.7328,4.577,8.76
3.12876,5.0173,4.9179,4.4333,8.31
3.144085,5.254,5.4591,3.9987,8.57
3.156966,6.3658,5.7078,3.6718,9.31
3.159186,7.5069,5.8877,3.2644,10.08
3.176081,7.8295,6.0014,2.5976,10.2
3.184537,7.2347,6.054,2.2486,9.7
3.191901,6.1464,6.085,1.8134,8.84
3.19998,4.9461,5.9713,1.3695,7.87
3.207825,3.9962,5.8925,1.0884,7.2
3.223661,2.739,5.8347,0.6767,6.48
3.232368,2.5302,5.6504,0.5012,6.21
3.240236,2.6587,5.4612,0.3564,6.08
3.248145,2.9341,5.2081,0.2991,5.99
3.263164,3.9307,4.7072,0.3847,6.14
3.271219,4.2145,4.4829,0.4163,6.17
3.280088,4.5369,4.376,0.4572,6.32
3.29173,4.6561,4.3206,0.3902,6.36
3.303644,4.7999,4.2499,0.0237,6.41
3.313276,4.5129,3.7573,-0.709,5.91
3.321732,4.4762,3.8222,-0.872,5.95
3.330401,4.6016,4.2393,-0.5839,6.28
3.339021,3.9402,4.1906,-0.5969,5.78
3.352189,3.3999,3.4944,-0.7306,4.93
3.361766,3.4369,3.109,-0.706,4.69
3.375411,4.1173,2.8757,-0.1975,5.03
3.383584,4.3481,2.9065,0.1064,5.23
3.391845,4.2309,2.9422,0.4339,5.17
3.400001,3.9569,2.8945,0.7228,4.96
3.407782,3.5273,2.807,1.0705,4.63
3.4246,2.6471,2.6038,1.9549,4.2
3.431969,2.1005,2.3698,2.0443,3.77
3.440159,1.8526,2.0689,2.1864,3.53
3.447959,1.9351,1.6112,2.2338,3.37
3.464174,2.5101,0.3094,2.1635,3.33
3.473227,2.8954,-0.3823,2.1816,3.65
3.480098,3.1446,-0.7534,2.1619,3.89
3.488221,3.2371,-0.9046,2.2696,4.06
3.503888,2.9737,-1.0273,2.4082,3.96
3.512073,2.5714,-1.1854,2.5209,3.79
3.521077,2.3826,-1.3903,2.6095,3.8
3.529956,2.4637,-1.6858,2.6011,3.96
3.540176,2.5007,-1.9972,2.6694,4.17
3.552134,2.7063,-2.6038,3.1295,4.89
3.562162,2.9399,-2.8194,3.5081,5.38
3.571885,3.1018,-3.0293,3.8889,5.82
3.583462,3.0448,-3.3798,4.458,6.37
3.591851,2.9218,-3.5801,4.6025,6.52
3.600011,2.8398,-3.7097,4.7319,6.65
3.608058,2.9081,-3.7786,4.7869,6.76
3.627809,3.0034,-3.9852,4.7675,6.9
3.632221,3.0168,-4.0389,4.6951,6.89
3.640168,3.1295,-4.0661,4.7148,6.97
3.65014,3.3786,-4.0505,4.7887,7.12
3.664206,3.47,-4.1239,4.9733,7.33
3.672201,3.2355,-4.1682,5.0142,7.28
3.679503,2.9169,-4.2431,4.9983,7.18
3.695708,1.8038,-4.4503,4.8793,6.85
3.706483,1.3219,-4.4396,4.8186,6.68
3.713502,1.0064,-4.4439,4.7234,6.56
3.720773,0.7108,-4.4805,4.5577,6.43
3.729024,0.5882,-4.5605,4.4389,6.39
3.738247,0.758,-4.5739,4.446,6.42
3.752186,1.1997,-4.4295,4.3736,6.34
3.762583,1.1502,-4.3638,4.3245,6.25
3.771838,1.0418,-4.3104,4.3215,6.19
3.779968,0.9518,-4.2169,4.3543,6.14
3.791401,1.3382,-3.8968,4.3336,5.98
3.800096,1.3721,-3.8157,4.295,5.91
3.80817,1.2198,-3.8886,4.2201,5.87
3.824011,1.0267,-4.0228,4.2482,5.94
3.831968,1.0866,-4.0118,4.3434,6.01
3.840529,1.1453,-4.0237,4.4149,6.08
3.847835,1.1732,-4.0131,4.5049,6.15
3.863966,1.1953,-3.9452,4.8065,6.33
3.872129,1.334,-3.8455,4.9342,6.4
3.880221,1.6987,-3.623,5.0215,6.42
3.895435,2.0277,-3.2361,5.0504,6.33
3.906407,2.1063,-3.0015,5.0589,6.25
3.912455,1.9181,-3.0307,4.9092,6.08
3.920572,1.665,-3.1166,4.7106,5.89
3.928699,1.4973,-3.138,4.4368,5.64
3.938647,1.4422,-3.0668,4.2544,5.44
3.951698,1.6021,-2.6898,4.0129,5.09
3.964242,1.542,-2.5768,3.9372,4.95
3.970319,1.5034,-2.4732,3.7798,4.76
3.979003,1.4285,-2.4058,3.6241,4.58
3.991814,1.317,-2.2711,3.2321,4.16
3.999798,1.3118,-2.2466,2.9916,3.96
4.007991,1.2369,-2.1921,2.8126,3.77
4.023974,1.0729,-2.054,2.5198,3.42
4.032026,0.9816,-1.9637,2.404,3.26
4.040243,0.9982,-1.8201,2.278,3.08
4.04841,0.9832,-1.6236,2.1625,2.88
4.06599,0.9514,-1.3501,2.0099,2.6
4.072247,0.9684,-1.3014,1.9494,2.54
4.080079,1.0352,-1.2971,1.909,2.53
4.088184,1.0913,-1.2676,1.9215,2.55
4.103299,1.0763,-1.242,1.8193,2.45
4.111916,1.137,-1.2593,1.8138,2.48
4.120547,1.2829,-1.2796,1.7074,2.49
4.128787,1.3755,-1.294,1.5774,2.46
4.144445,1.3295,-1.4207,1.1124,2.24
4.153252,1.2681,-1.5054,0.8057,2.13
4.162172,1.1132,-1.6423,0.4074,2.03
4.170761,0.9139,-1.7086,0.0935,1.94
4.179303,0.6951,-1.7072,-0.1989,1.85
4.192148,0.6417,-1.584,-0.5849,1.81
4.199778,0.7875,-1.4938,-0.7098,1.83
4.207955,0.8617,-1.2895,-0.7921,1.74
4.22404,0.8841,-0.7158,-0.7474,1.36
4.232587,0.6889,-0.4206,-0.8246,1.15
4.240467,0.2734,-0.1931,-1.0038,1.06
4.248047,-0.159,0.1168,-1.1581,1.17
4.263714,-0.8561,0.4455,-1.4547,1.75
4.272065,-1.0236,0.3718,-1.5907,1.93
4.280608,-1.155,0.1683,-1.6696,2.04
4.288137,-1.2039,-0.0008,-1.7048,2.09
4.303464,-0.9952,-0.2738,-1.5172,1.83
4.314943,-0.8581,-0.4012,-1.3242,1.63
4.320745,-0.8155,-0.4857,-1.1681,1.51
4.328461,-0.6896,-0.527,-1.0356,1.35
4.343816,-0.1566,-0.4887,-1.1286,1.24
4.357302,-0.0796,-0.5598,-1.3451,1.46
4.36339,-0.0187,-0.6986,-1.5246,1.68
4.367899,0.0275,-0.8936,-1.7753,1.99
4.38435,0.2065,-1.1982,-2.1891,2.5
4.391955,0.2989,-1.3391,-2.2729,2.65
4.400409,0.3493,-1.4811,-2.2667,2.73
4.415508,0.3012,-1.5211,-2.1109,2.62
4.423986,0.2327,-1.4534,-1.9485,2.44
4.43202,0.1299,-1.4116,-1.8041,2.29
4.44028,0.0005,-1.3625,-1.6338,2.13
4.448077,0.0002,-1.3003,-1.4949,1.98
4.46435,0.003,-1.0984,-1.2587,1.67
4.471991,-0.1107,-1.0891,-1.1272,1.57
4.480455,-0.2883,-1.111,-1.0335,1.54
4.488068,-0.5528,-1.1915,-0.9451,1.62
4.504117,-1.1285,-1.582,-0.8658,2.13
4.518152,-1.3383,-1.8461,-0.797,2.42
4.519526,-1.5816,-2.0939,-0.7349,2.73
4.529631,-1.7777,-2.2792,-0.6013,2.95
4.544174,-2.1874,-2.5417,-0.2692,3.36
4.553955,-2.3439,-2.5664,-0.0791,3.48
4.563275,-2.4274,-2.5561,0.161,3.53
4.57059,-2.4504,-2.5494,0.398,3.56
4.584926,-2.3865,-2.5799,0.8404,3.61
4.592288,-2.1515,-2.6176,0.9711,3.52
4.600585,-1.9215,-2.6036,1.0377,3.4
4.608173,-1.7445,-2.5773,1.1139,3.31
4.623742,-1.5463,-2.5371,1.1206,3.18
4.632058,-1.4757,-2.6791,0.971,3.21
4.640312,-1.4673,-2.8594,0.7258,3.29
4.648019,-1.599,-2.9894,0.5107,3.43
4.664045,-1.7546,-2.7963,0.4526,3.33
4.6732,-1.7051,-2.6146,0.5248,3.17
4.679781,-1.5582,-2.4105,0.613,2.93
4.687873,-1.3884,-2.2336,0.6451,2.71
4.704165,-0.7506,-1.8216,0.5598,2.05
4.712149,-0.4702,-1.6681,0.4282,1.79
4.720784,-0.3039,-1.5841,0.3274,1.65
4.729208,-0.1178,-1.4952,0.1876,1.51
4.744061,-0.3369,-1.4624,-0.0214,1.5
4.753757,-0.8269,-1.5003,0.0055,1.71
4.762974,-1.0464,-1.4717,0.1092,1.81
4.771519,-1.1116,-1.3291,0.2067,1.74
4.779772,-1.0777,-1.1316,0.302,1.59
4.7922,-0.6015,-0.5418,0.4193,0.91
4.799835,-0.2612,-0.2152,0.4063,0.53
4.808295,0.2662,0.0899,0.1864,0.34
4.823396,1.1444,0.585,-0.5942,1.42
4.831821,1.7072,0.8455,-1.0111,2.16
4.840373,2.1344,1.0571,-1.3619,2.74
4.848155,2.2036,1.1986,-1.5885,2.97
4.863792,2.0573,1.4772,-1.7238,3.06
4.872144,1.7315,1.5985,-1.6278,2.86
4.880493,1.2704,1.7096,-1.4256,2.56
4.887959,0.9799,1.7699,-1.3408,2.43
4.899019,0.9234,1.6945,-1.4003,2.38
4.912193,1.6937,1.2639,-1.8284,2.79
4.920907,2.8126,0.9579,-2.2565,3.73
4.928648,4.3668,0.4817,-2.7667,5.19
4.937811,6.0659,0.1262,-3.3348,6.92
4.948558,7.6711,-0.1378,-4.0185,8.66
4.960284,9.2432,-0.0206,-5.0548,10.54
4.974848,8.9623,0.0931,-5.282,10.4
4.987178,7.4293,0.5464,-4.9035,8.92
4.991863,7.2724,0.6827,-4.7224,8.7
5.00042,7.574,0.6433,-4.5859,8.88
5.007964,7.9524,0.4726,-4.3658,9.08
5.024522,7.7023,0.348,-4.035,8.7
5.032045,7.3133,0.3844,-4.0009,8.34
5.040216,6.7529,0.5216,-4.0055,7.87
5.04798,5.5822,0.9694,-3.892,6.87
5.063936,2.3866,2.5105,-3.0092,4.59
5.073101,0.3513,3.4254,-2.2399,4.11
5.079995,-1.516,4.1046,-1.5164,4.63
5.088368,-3.4265,4.8697,-0.6785,5.99
5.104025,-6.1851,6.6663,0.9404,9.14
5.112085,-7.2932,7.5462,1.5214,10.6
5.120552,-8.4269,8.5009,1.9546,12.13
5.129042,-9.1236,9.3488,2.2728,13.26
5.143531,-9.2265,11.2154,2.6503,14.76
5.15721,-8.0171,12.0474,2.6318,14.71
5.163157,-6.8893,12.7463,2.6591,14.73
5.170385,-5.9962,13.2802,2.6452,14.81
5.178347,-5.3064,13.6798,2.5791,14.9
5.1881,-5.069,13.767,2.6507,14.91
5.199697,-5.0334,13.2507,2.7942,14.45
5.208207,-5.1765,12.9389,2.9423,14.24
5.224247,-5.5523,12.171,3.4219,13.81
5.232219,-5.4203,11.6873,3.7135,13.41
5.239993,-5.0439,11.1107,3.8568,12.8
5.248024,-4.4895,10.5781,3.7867,12.1
5.263771,-1.5434,10.3241,3.0517,10.88
5.272835,0.3943,10.3156,2.5985,10.65
5.280152,3.1764,10.1013,1.8848,10.76
5.28804,6.0416,9.6968,1.06,11.47
5.305204,10.8192,7.9281,-1.6751,13.52
5.313847,12.5292,6.8162,-3.0253,14.58
5.320467,13.9492,6.0076,-3.6818,15.63
5.328269,15.779,5.23,-4.1507,17.13
5.343415,18.9987,4.4346,-4.7201,20.07
5.353675,20.2586,4.0152,-4.8517,21.21
5.362582,21.5563,3.533,-4.7424,22.35
5.370672,23.2094,2.6706,-4.8196,23.85
5.383748,24.6767,-0.1897,-5.5274,25.29
5.39169,24.6409,-1.6057,-5.6878,25.34
5.400823,24.232,-3.0616,-5.4828,25.03
5.416271,22.8255,-6.135,-4.266,24.02
5.423906,21.8592,-7.6398,-3.6648,23.44
5.432436,20.6148,-9.1043,-2.8466,22.71
5.440588,19.2066,-10.147,-1.9696,21.81
5.447766,17.8727,-10.8676,-1.2746,20.96
5.4642,14.7805,-11.9342,-0.1386,19
5.472017,12.906,-12.3413,0.249,17.86
5.480436,11.0778,-12.6885,0.5124,16.85
5.488007,9.0342,-12.8937,0.7899,15.76
5.504815,5.697,-13.0612,1.0988,14.29
5.515273,4.3877,-13.2049,1.0862,13.96
5.521303,3.0347,-13.3219,1.0762,13.71
5.528678,1.648,-13.3226,1.1922,13.48
5.544285,-1.0871,-13.337,1.5878,13.48
5.553282,-2.4038,-13.4805,1.8379,13.82
5.56281,-3.9334,-13.5967,2.1309,14.31
5.571302,-5.3782,-13.7972,2.3793,15
5.579708,-7.0917,-13.8607,2.7414,15.81
5.592355,-10.0584,-13.7782,3.6993,17.46
5.60102,-10.9419,-13.7636,4.0406,18.04
5.608573,-11.4621,-13.6941,4.4605,18.41
5.625208,-11.1268,-13.2489,5.2289,18.07
5.632261,-10.7416,-13.0368,5.3245,17.71
5.640651,-10.4183,-12.9184,5.2514,17.41
5.648396,-10.3246,-12.7903,4.8934,17.15
5.663581,-11.1451,-13.1383,3.9278,17.67
5.672353,-11.4013,-13.4542,3.654,18.01
5.680238,-11.5728,-13.7222,3.5592,18.3
5.688203,-11.645,-13.8701,3.5716,18.46
5.704079,-9.7629,-13.8674,3.408,17.3
5.712568,-7.8288,-14.0483,2.9891,16.36
5.720073,-5.1792,-13.9576,2.3946,15.08
5.728633,-2.0467,-13.4627,1.1753,13.67
5.744358,3.4405,-11.3337,-2.3619,12.08
5.757143,5.8127,-9.6871,-3.664,11.88
5.762569,7.5958,-8.5021,-4.7629,12.36
5.770164,9.2375,-7.8326,-5.9354,13.49
5.779558,10.6278,-7.6595,-6.806,14.76
5.792497,12.5304,-6.5058,-6.9551,15.74
5.800753,12.8065,-4.9562,-6.0166,14.99
5.808583,13.2331,-3.7309,-5.3473,14.75
5.824171,13.5916,-2.4354,-4.62,14.56
5.832682,13.6021,-1.8588,-4.2371,14.37
5.841027,13.1218,-1.4098,-3.7291,13.71
5.84854,12.1572,-1.2007,-3.1211,12.61
5.86374,9.3086,-1.0598,-1.7964,9.54
5.872043,7.2146,-0.8472,-1.0563,7.34
5.880342,5.234,-0.4615,-0.5042,5.28
5.888425,3.0358,0.0012,0.0487,3.04
5.904593,-0.6901,0.8756,0.9802,1.48
5.91276,-2.2526,1.2851,1.2645,2.89
5.921291,-3.2901,1.6169,1.4116,3.93
5.928551,-4.0664,1.9163,1.4351,4.72
5.944742,-4.6332,2.4704,0.9446,5.33
5.95471,-4.7826,2.7803,0.665,5.57
5.963567,-4.9406,3.1104,0.5239,5.86
5.970288,-5.1278,3.3603,0.659,6.17
5.978524,-5.5963,3.6437,0.9178,6.74
5.992969,-6.091,4.3341,1.8008,7.69
6.000532,-6.0458,4.6529,2.3837,7.99
6.008155,-5.9281,4.8901,2.7894,8.18
6.024402,-5.194,5.146,3.2716,8.01
6.031653,-4.4631,5.0541,3.2831,7.5
6.040526,-3.6984,4.8255,3.1408,6.84
6.048666,-2.5133,4.4147,2.8287,5.81
6.064517,0.2237,3.4639,1.5973,3.82
6.072925,1.1844,3.0186,1.276,3.48
6.079988,2.2873,2.7412,1.1569,3.75
6.088142,3.3442,2.5983,1.1316,4.38
6.103938,5.0664,2.352,0.9536,5.67
6.112408,5.5306,2.3337,0.7672,6.05
6.120714,5.8856,2.3655,0.541,6.37
6.128569,6.0766,2.2349,0.2637,6.48
6.138446,6.4003,1.9844,-0.2782,6.71
6.1523,7.7544,1.7069,-1.3656,8.06
6.16526,8.2555,1.6487,-1.7058,8.59
6.170894,8.4757,1.3942,-1.6444,8.75
6.183925,8.0131,0.7753,-0.8604,8.1
6.192287,7.1532,0.5182,-0.1897,7.17
6.200419,6.4251,0.2751,0.4678,6.45
6.208107,5.8996,0.058,1.1941,6.02
6.224468,4.9157,0.2687,2.3456,5.45
6.232554,4.1666,0.4536,2.8048,5.04
6.239467,3.4111,0.6969,3.3041,4.8
6.247945,2.8093,0.8561,3.6324,4.67
6.263832,2.0851,1.1538,4.09,4.73
6.271834,2.2467,1.4538,4.4441,5.19
6.279239,2.2363,1.6916,4.703,5.48
6.291246,1.9921,2.0023,4.8336,5.6
6.304189,0.0872,3.7039,4.4784,5.81
6.312203,-1.6616,4.8248,4.0193,6.5
6.322239,-2.631,5.802,3.7674,7.4
6.328398,-3.5589,6.6523,3.6257,8.37
6.343947,-4.1918,5.0471,3.798,7.58
6.353292,-2.4752,4.387,5.1144,7.18
6.361764,0.4667,4.3469,6.9536,8.21
6.369831,3.5597,4.9988,7.8097,9.93
6.378316,6.6405,6.0493,8.6631,12.48
6.391555,11.5805,7.3406,9.5009,16.68
6.400126,13.5318,7.707,9.8402,18.42
6.408155,14.8679,7.8584,10.1715,19.65
6.424218,18.5186,7.2188,10.5876,22.52
6.432182,20.6879,6.5474,10.5181,24.11
6.440509,22.2505,5.7661,10.362,25.21
6.455914,23.2575,4.4177,9.7089,25.59
6.463831,23.5461,3.6364,9.3505,25.59
6.471821,24.023,2.9336,8.8668,25.77
6.480305,24.5854,2.0678,8.264,26.02
6.488986,25.1613,0.959,7.6299,26.31
6.503961,25.3928,-1.9289,6.1633,26.2
6.513811,24.8051,-3.2788,5.5263,25.62
6.520656,24.0429,-4.6161,4.8723,24.96
6.52849,23.1388,-5.5219,4.4158,24.19
6.544622,20.5361,-6.5962,3.8428,21.91
6.555899,18.9867,-7.0433,3.4903,20.55
6.562184,17.5999,-7.5642,3.0604,19.4
6.570279,15.8678,-8.2068,2.4318,18.03
6.57812,14.2743,-8.7382,1.9229,16.85
6.591613,10.6114,-9.5202,1.0333,14.29
6.599712,9.0425,-9.8712,0.8138,13.41
6.608077,7.0796,-10.2951,0.7959,12.52
6.624133,3.8339,-10.8638,1.5937,11.63
6.632567,2.5433,-11.0506,2.185,11.55
6.640458,1.0363,-11.3241,2.6936,11.69
6.648749,-0.3019,-11.5524,2.9643,11.93
6.664209,-3.5195,-11.7516,3.242,12.69
6.672393,-5.4037,-11.4477,3.4139,13.11
6.680246,-7.2756,-10.9631,3.4076,13.59
6.688165,-8.6737,-10.5435,3.3599,14.06
6.703487,-10.5308,-9.6509,3.4689,14.7
6.714541,-10.7,-9.3371,3.5885,14.65
6.720186,-10.4553,-9.2717,3.6938,14.45
6.729673,-10.1955,-9.4586,3.7396,14.4
6.744394,-9.8501,-9.9202,3.8398,14.5
6.755145,-9.9353,-10.2378,3.8785,14.78
6.761322,-10.379,-10.7578,3.7926,15.42
6.770376,-10.8868,-11.2108,3.5366,16.02
6.778449,-11.2536,-11.7254,3.2188,16.57
6.792328,-11.232,-12.4161,2.8156,16.98
6.799666,-10.5583,-12.8351,2.4456,16.8
6.815917,-9.6693,-14.2199,1.6448,17.27
6.823903,-9.4486,-14.6997,1.3062,17.52
6.832207,-9.2856,-14.9733,0.7657,17.64
6.840221,-9.0972,-15.1315,0.2066,17.66
6.848378,-9.0312,-15.2571,-0.4385,17.74
6.863653,-7.9909,-14.9869,-1.9231,17.09
6.872205,-6.5515,-14.554,-2.7262,16.19
6.880304,-4.7013,-14.1309,-3.2375,15.24
6.888248,-2.4518,-13.5056,-3.5815,14.19
6.90349,1.3738,-11.8721,-3.7692,12.53
6.914322,3.0224,-11.1222,-3.839,12.15
6.920207,5.0682,-10.3218,-4.018,12.18
6.928075,6.7838,-9.5574,-4.5697,12.58
6.940984,8.3188,-8.7557,-5.3744,13.22
6.954295,11.1018,-6.8797,-6.5666,14.62
6.963157,12.4524,-5.6431,-7.1919,15.45
6.970184,13.6983,-4.5359,-7.847,16.43
6.978524,15.4789,-3.1047,-8.3399,17.85
6.992666,19.2383,0.8464,-8.1781,20.92
7.000308,20.6907,3.0088,-7.618,22.25
7.01562,21.0883,6.086,-5.9572,22.74
7.024081,19.3557,6.6931,-5.1917,21.13
7.032136,17.1264,6.8523,-4.8234,19.07
7.040066,14.2513,6.9366,-4.3488,16.44
7.048353,12.0189,7.309,-3.804,14.57
7.064612,8.1313,8.508,-2.7948,12.1
7.071959,6.8439,9.0162,-2.5089,11.59
7.081753,5.5399,9.5451,-2.2866,11.27
7.088576,4.5262,10.0667,-2.1364,11.24
7.104409,2.6339,11.3457,-1.7305,11.78
7.111818,1.9038,12.1162,-1.4851,12.35
7.119744,1.1756,12.964,-1.2221,13.07
7.128247,0.0471,14.074,-0.9295,14.1
7.144224,-2.0815,16.1712,-0.0878,16.3
7.157016,-3.1547,17.1709,0.2946,17.46
7.163704,-3.9516,17.6558,0.6912,18.11
7.169866,-4.6384,17.7479,1.1897,18.38
7.178263,-5.1042,17.5476,1.7471,18.36
7.192324,-5.5854,16.8584,3.5191,18.1
7.200662,-5.4697,16.5708,4.6057,18.05
7.208362,-5.4068,16.388,5.5236,18.12
7.223668,-5.0321,16.0109,6.9128,18.15
7.232158,-4.711,15.6449,7.2387,17.87
7.240263,-4.3236,15.1067,7.2391,17.3
7.248159,-3.4823,14.2016,6.8752,16.16
7.2643,-0.8225,11.3466,5.1979,12.51
7.272668,0.8747,9.724,4.1671,10.62
7.280287,1.989,8.5538,3.4459,9.43
7.289638,2.9792,7.5938,2.7487,8.61
7.3073,5.3478,6.0642,1.942,8.32
7.315408,7.5116,5.0652,1.0395,9.12
7.322204,10.6064,3.8331,-0.9114,11.31
7.328985,13.388,3.1824,-2.853,14.05
7.344284,19.5195,3.4251,-7.0897,21.05
7.353801,21.8221,3.4893,-8.6818,23.74
7.362863,23.7799,3.1416,-10.1235,26.04
7.371008,25.0701,2.3322,-10.9749,27.47
7.379126,25.7493,0.9634,-11.5756,28.25
7.393125,25.1302,-2.8374,-10.7921,27.5
7.40026,24.1289,-4.7404,-9.6628,26.42
7.408531,22.3235,-6.8558,-7.6253,24.57
7.423767,18.1519,-9.9209,-3.3271,20.95
7.431582,16.1757,-10.9719,-1.4016,19.6
7.440069,14.0468,-12.0163,0.5864,18.49
7.448077,12.0169,-12.9234,2.1923,17.78
7.463795,8.2023,-14.3587,4.2388,17.07
7.4719,6.3249,-14.9029,4.7426,16.87
7.480343,4.1779,-15.2967,4.9774,16.62
7.495985,0.0945,-15.6781,4.5807,16.33
7.504247,-1.7046,-15.8324,4.3453,16.51
7.511703,-3.5938,-15.9678,4.1908,16.9
7.519851,-5.0514,-16.004,4.1296,17.28
7.529616,-6.7634,-16.0088,4.1097,17.86
7.538888,-8.1743,-15.9681,4.0947,18.4
7.5511,-9.7949,-15.8866,4.0907,19.11
7.562839,-11.9188,-15.5482,4.5207,20.11
7.57328,-12.6747,-15.4563,4.7302,20.54
7.582268,-13.0345,-15.4436,4.9912,20.82
7.589582,-13.274,-15.4057,5.3563,21.03
7.60064,-13.4864,-15.2079,6.2906,21.28
7.608094,-13.4305,-15.1118,6.7026,21.3
7.624129,-12.9852,-14.9457,7.2584,21.09
7.6313,-12.2827,-14.734,7.2072,20.49
7.639765,-11.2902,-14.5253,6.7935,19.61
7.648002,-10.0272,-14.2334,6.1556,18.47
7.658207,-8.376,-13.8127,5.3419,17.01
7.671979,-4.6927,-12.1597,3.5158,13.5
7.680248,-2.6918,-11.3013,2.6362,11.91
7.688516,-0.3957,-10.4188,1.4506,10.53
7.698768,1.6031,-9.7098,0.3608,9.85
7.713239,6.7142,-8.4927,-2.5086,11.11
7.720704,9.1339,-7.9134,-3.8578,12.69
7.728209,10.9718,-7.3774,-4.7207,14.04
7.73806,13.2859,-6.4897,-5.5598,15.8
7.752248,16.4202,-3.4394,-6.478,17.98
7.762816,16.3472,-1.8863,-6.3794,17.65
7.770592,15.6681,-0.7266,-5.9927,16.79
7.778531,14.6404,0.4422,-5.1758,15.53
7.792079,12.1272,1.6768,-3.3281,12.69
7.799759,10.9416,1.7645,-2.5534,11.37
7.808066,9.4256,1.7196,-1.7161,9.73
7.823867,6.0414,1.588,-0.207,6.25
7.832171,4.4141,1.5844,0.4496,4.71
7.839656,2.6942,1.743,1.1553,3.41
7.855973,-0.1865,2.2715,2.0634,3.07
7.863906,-1.3775,2.5633,2.3098,3.72
7.872098,-2.1245,2.788,2.376,4.23
7.880659,-2.5933,2.9973,2.1865,4.53
7.888074,-2.5223,3.2327,1.8261,4.49
7.90361,-1.4129,3.9503,0.5037,4.23
7.912949,-1.4334,4.3558,-0.0605,4.59
7.920543,-1.8448,4.6202,-0.4053,4.99
7.928349,-2.4389,4.7933,-0.5541,5.41
7.943457,-3.6328,4.947,-0.1521,6.14
7.957032,-4.2385,4.7886,0.3385,6.4
7.960116,-4.6487,4.6696,0.8349,6.64
7.970342,-4.9271,4.6675,1.4749,6.95
7.978693,-4.8678,4.6501,1.9554,7.01
7.991576,-3.4836,3.8271,2.3669,5.69
8.000473,-1.8606,3.0208,2.1112,4.13
8.01604,1.8785,1.4095,1.3884,2.73
8.024025,3.8935,0.6948,0.9304,4.06
8.032279,6.5428,0.1822,0.2293,6.55
8.040598,9.0747,0.0542,-0.741,9.11
8.055337,12.5746,-0.0408,-3.2018,12.98
8.06382,12.9052,-0.1771,-4.1326,13.55
8.071851,12.869,-0.2647,-4.8987,13.77
8.08009,12.8689,-0.3851,-5.3271,13.93
8.087998,13.1052,-0.6797,-5.5432,14.25
8.104224,13.3603,-1.284,-5.2043,14.4
8.111811,13.0585,-1.5178,-4.7606,13.98
8.120251,12.293,-1.8682,-4.383,13.18
8.128197,11.4328,-2.3403,-4.1037,12.37
8.144031,8.646,-3.4051,-3.2673,9.85
8.153277,7.4106,-3.8107,-3.0086,8.86
8.161299,6.0692,-4.1219,-2.4938,7.75
8.169858,5.1004,-4.3555,-2.0392,7.01
8.178893,4.2691,-4.4546,-1.4341,6.33
8.189262,3.7859,-4.4097,-1.0018,5.9
8.200548,3.2026,-3.8195,-0.3044,4.99
8.208612,2.8165,-3.6569,-0.1377,4.62
8.224096,2.6032,-3.3733,-0.2693,4.27
8.232009,2.6708,-3.1675,-0.5107,4.17
8.240225,2.8055,-3.0107,-0.8153,4.2
8.248299,3.0158,-2.824,-1.0601,4.27
8.263317,2.774,-2.8953,-1.8067,4.4
8.272024,2.6146,-3.0342,-2.1358,4.54
8.281545,2.1314,-3.2733,-2.535,4.66
8.289366,1.4946,-3.4943,-2.9126,4.79
8.304074,0.1065,-3.522,-3.6541,5.08
8.312847,-0.4268,-3.3474,-3.845,5.12
8.319692,-0.5377,-3.2588,-3.9435,5.14
8.328091,-0.4668,-3.3503,-3.9059,5.17
8.338146,-0.3821,-3.5489,-3.9955,5.36
8.352241,-0.0664,-3.9379,-4.2605,5.8
8.361184,0.1002,-3.9709,-4.3093,5.86
8.370286,0.2508,-4.0585,-4.2744,5.9
8.378862,0.2713,-4.19,-4.1054,5.87
8.388586,0.2796,-4.2788,-3.9481,5.83
8.39998,0.0065,-4.2001,-4.2568,5.98
8.40791,-0.2336,-3.9803,-4.5514,6.05
8.423543,-0.9867,-3.1085,-5.3614,6.28
8.432426,-1.1846,-2.6058,-5.781,6.45
8.440503,-1.4175,-2.0016,-6.1154,6.59
8.448091,-1.4403,-1.4153,-6.3275,6.64
8.463831,-1.0453,-0.4337,-6.2342,6.34
8.471764,-0.561,-0.4656,-5.733,5.78
8.479492,0.1456,-0.8737,-5.1344,5.21
8.495775,1.8502,-1.9041,-3.2502,4.2
8.503694,2.3059,-2.0821,-2.2024,3.81
8.511713,1.9902,-1.9603,-1.4055,3.13
8.522525,1.3533,-1.7125,-0.9974,2.4
8.529054,0.5246,-1.279,-0.8914,1.64
8.544297,-1.0245,-0.4375,-1.5951,1.95
8.556622,-1.4608,-0.1467,-2.1278,2.59
8.56308,-1.514,0.1186,-2.5732,2.99
8.569859,-1.2928,0.2144,-2.7552,3.05
8.58354,-0.0237,0.2208,-2.4998,2.51
8.592132,0.4421,0.2168,-2.1459,2.2
8.600245,0.6936,0.1853,-1.8196,1.96
8.608243,0.7355,0.1498,-1.5755,1.75
8.625125,0.7848,0.2276,-1.4606,1.67
8.631525,0.946,0.4979,-1.4895,1.83
8.640084,1.0176,0.6995,-1.5978,2.02
8.648085,0.9006,0.7319,-1.7059,2.06
8.664084,0.3923,0.3957,-1.8882,1.97
8.671986,0.0206,0.2294,-1.8024,1.82
8.680456,-0.3141,0.135,-1.5296,1.57
8.688424,-0.4284,0.1814,-1.1951,1.28
8.704094,-0.1229,0.4397,-0.4012,0.61
8.71311,0.3087,0.4595,-0.0121,0.55
8.719993,0.8894,0.5153,0.2132,1.05
8.728122,1.2091,0.5967,0.4361,1.42
8.740125,1.3361,0.6199,0.4618,1.54
8.753511,0.8205,0.4564,0.1069,0.94
8.761007,0.5621,0.3026,-0.2006,0.67
8.769715,0.1266,0.2519,-0.5327,0.6
8.780422,-0.0933,0.3432,-0.7309,0.81
8.79145,-0.211,0.562,-0.9907,1.16
8.799892,-0.2466,0.5788,-1.0742,1.24
8.807765,-0.1657,0.5062,-1.0747,1.2
8.823893,0.2082,0.275,-0.9373,1
8.832225,0.4056,0.1087,-0.9225,1.01
8.840977,0.4185,-0.0127,-0.8687,0.96
8.856144,0.0998,0.0698,-0.646,0.66
8.864087,0.164,0.034,-0.6738,0.69
8.872056,0.3113,-0.0381,-0.6334,0.71
8.880168,0.3096,0.0214,-0.6565,0.73
8.890225,0.1872,0.1351,-0.7857,0.82
8.90356,0.0218,0.4482,-1.2879,1.36
8.913532,0.1151,0.5951,-1.4974,1.62
8.92298,0.2942,0.4682,-1.6293,1.72
8.928082,0.4989,0.1776,-1.6561,1.74
8.938241,0.7738,-0.1084,-1.4534,1.65
8.951406,0.8489,-0.4153,-0.8395,1.26
8.962932,0.6997,-0.2387,-0.5367,0.91
8.972039,0.493,-0.037,-0.3771,0.62
8.980406,0.3811,0.1366,-0.398,0.57
8.99171,0.553,0.2828,-0.8424,1.05
9.003862,0.6206,0.2959,-0.955,1.18
9.016134,0.9474,0.2554,-0.8819,1.32
9.024046,0.9588,0.246,-0.6264,1.17
9.031902,0.9609,0.2079,-0.4263,1.07
9.04014,1.0478,0.2362,-0.3581,1.13
9.048047,1.0735,0.3209,-0.3687,1.18
9.063502,1.2484,0.2644,-0.5902,1.41
9.072039,1.4692,0.0932,-0.6658,1.62
9.080449,1.6715,-0.0722,-0.6326,1.79
9.090233,1.8579,-0.1807,-0.511,1.94
9.10469,1.8939,0.0108,-0.2346,1.91
9.112236,1.8134,0.1879,-0.2838,1.85
9.120049,1.6365,0.3097,-0.5634,1.76
9.127834,1.5879,0.3743,-0.8877,1.86
9.143928,1.6458,0.509,-1.4739,2.27
9.153846,1.5907,0.5141,-1.5293,2.27
9.161229,1.7326,0.5188,-1.3898,2.28
9.171801,1.9054,0.5012,-0.8858,2.16
9.180609,1.9087,0.4778,-0.3447,2
9.192171,1.6778,0.784,0.6689,1.97
9.20485,1.4462,0.9202,0.9088,1.94
9.216133,1.2368,0.9164,0.7971,1.73
9.223789,1.344,0.7389,0.6156,1.65
9.231933,1.4898,0.5716,0.463,1.66
9.240074,1.5457,0.4113,0.232,1.62
9.24806,1.5495,0.2844,-0.017,1.58
9.264391,1.5885,0.0733,-0.9242,1.84
9.272764,1.4654,-0.135,-1.5988,2.17
9.280575,1.2676,-0.384,-2.3556,2.7
9.288175,1.0867,-0.6188,-2.9289,3.18
9.303903,0.566,-1.219,-3.9054,4.13
9.312352,0.3186,-1.6283,-4.2125,4.53
9.320588,0.111,-1.8796,-4.3222,4.71
9.327952,-0.2497,-1.9077,-4.1964,4.62
9.34454,-1.6041,-2.0313,-3.2997,4.19
9.354827,-1.8264,-2.0378,-2.7879,3.91
9.361872,-1.5191,-2.1489,-2.0691,3.35
9.370032,-1.0293,-2.3405,-1.2264,2.84
9.379124,-0.5397,-2.5094,-0.463,2.61
9.392405,0.4203,-2.874,0.9094,3.04
9.400252,0.54,-2.6418,1.5501,3.11
9.408223,0.451,-2.3048,1.9758,3.07
9.423429,0.3835,-1.5628,2.2981,2.81
9.431989,0.3467,-1.1657,2.3591,2.65
9.440129,0.2393,-0.8538,2.4622,2.62
9.447907,0.1922,-0.7416,2.8167,2.92
9.464112,0.2897,-1.2769,3.7596,3.98
9.472116,0.4899,-1.7049,4.5226,4.86
9.480949,0.6469,-1.9957,5.3619,5.76
9.496097,0.3495,-2.1577,6.6944,7.04
9.503701,-0.0126,-2.0535,6.9837,7.28
9.511603,-0.2687,-1.9428,6.9345,7.21
9.520091,-0.5059,-1.7821,6.4869,6.75
9.528064,-0.6979,-1.5196,5.8913,6.12
9.543666,-1.1186,-0.8957,4.1827,4.42
9.556087,-1.3358,-0.6852,3.1926,3.53
9.562928,-1.4917,-0.5428,2.4055,2.88
9.572378,-1.7123,-0.4744,1.7019,2.46
9.579966,-1.7823,-0.4607,1.1792,2.19
9.591305,-1.7048,-0.5473,0.5969,1.89
9.600213,-1.6097,-0.5925,0.2963,1.74
9.608366,-1.4901,-0.6212,-0.1128,1.62
9.624047,-1.3355,-0.7212,-0.8637,1.75
9.631725,-1.3205,-0.7812,-1.2017,1.95
9.6406,-1.3021,-0.7842,-1.529,2.16
9.656067,-1.2027,-0.7576,-2.0515,2.5
9.663847,-1.2305,-0.7606,-2.306,2.72
9.671869,-1.3139,-0.7493,-2.532,2.95
9.68058,-1.3443,-0.7626,-2.6774,3.09
9.688705,-1.3603,-0.8361,-2.6925,3.13
9.703869,-1.3146,-1.0566,-2.5844,3.09
9.71647,-1.1479,-1.1194,-2.4584,2.94
9.720166,-0.988,-1.1005,-2.3553,2.78
9.728348,-0.842,-1.0478,-2.2104,2.59
9.743825,-0.7047,-0.9983,-1.9047,2.26
9.756556,-0.7605,-0.9749,-1.8143,2.2
9.759993,-0.6356,-0.9981,-1.7698,2.13
9.76963,-0.5829,-1.0672,-1.6541,2.05
9.777811,-0.6167,-1.056,-1.63,2.04
9.792293,-0.8917,-0.8793,-1.7793,2.18
9.804438,-1.0841,-0.7922,-1.9681,2.38
9.816104,-1.3565,-0.562,-2.4154,2.83
9.824084,-1.466,-0.3975,-2.5744,2.99
9.832016,-1.6341,-0.2532,-2.7264,3.19
9.840192,-1.6962,-0.1074,-2.8606,3.33
9.856107,-1.0063,0.0733,-3.0227,3.19
9.863936,-0.5189,0.1012,-2.7187,2.77
9.872159,0.0929,-0.0146,-2.233,2.24
9.879949,0.6048,-0.2419,-1.7603,1.88
9.887927,1.064,-0.6311,-1.1447,1.69
9.903901,1.2868,-1.2842,-0.0975,1.82
9.915569,1.0555,-1.303,0.2844,1.7
9.92007,0.8238,-1.1515,0.6543,1.56
9.929817,0.8776,-1.0223,1.2066,1.81
9.944203,1.4047,-1.5059,2.7141,3.41
9.957053,2.0421,-1.7929,3.5795,4.49
9.960527,2.7673,-1.9526,4.3668,5.53
9.970802,3.2222,-2.0055,4.9181,6.21
9.980271,3.4535,-2.0051,5.3859,6.7
9.991867,3.3522,-1.9058,5.1484,6.43
10.000289,3.1293,-1.885,4.5888,5.87
10.008121,2.7639,-1.9146,3.8026,5.08
10.023598,1.1592,-3.0299,1.9284,3.77
10.032104,1.9531,-2.5621,1.6674,3.63
10.040129,1.4489,-2.2366,1.5671,3.09
10.04808,1.2967,-1.4599,2.0675,2.84
10.063218,1.7017,-0.877,2.6178,3.24
10.071534,1.6021,-1.0456,2.792,3.38
10.079873,1.2277,-1.2474,3.1168,3.57
10.089641,0.8379,-1.4627,3.2686,3.68
10.098636,0.7263,-1.6573,2.8152,3.35
10.111905,0.5317,-1.8481,1.1012,2.22
10.120935,0.4939,-1.8317,0.3039,1.92
10.136079,-0.0524,-1.7181,-1.4329,2.24
10.144368,-0.2822,-1.6544,-2.0826,2.67
10.152764,-0.4562,-1.5981,-2.748,3.21
10.165368,-0.3682,-1.6352,-3.2555,3.66
10.171975,-0.2619,-1.7163,-3.7387,4.12
10.178816,0.0349,-1.7826,-4.1191,4.49
10.192114,0.5986,-1.9922,-4.8631,5.29
10.200212,0.7589,-2.0925,-5.1265,5.59
10.208,0.8094,-2.0809,-5.3226,5.77
10.224018,1.3751,-1.4702,-5.7284,6.07
10.231278,1.9065,-0.928,-5.911,6.28
10.240073,0.9437,-1.084,-6.5057,6.66
10.247985,2.2534,1.0251,-6.0123,6.5
10.263998,4.9065,2.0312,-4.4443,6.92
10.271581,5.9793,1.1893,-3.7341,7.15
10.280684,6.5492,0.0602,-3.3608,7.36
10.295953,10.1005,0.6667,-2.0166,10.32
10.303971,12.4641,2.0246,-1.7593,12.75
10.315164,14.7954,3.6812,-2.0276,15.38
10.323538,16.4511,5.2048,-2.4587,17.43
10.331496,17.2874,6.0207,-1.2753,18.35
10.34064,18.6572,6.861,0.9611,19.9
10.351892,22.345,7.2736,6.8429,24.48
10.363678,25.8876,5.5692,11.7337,28.96
10.372125,27.9569,3.7886,14.7985,31.86
10.380096,27.507,2.2752,18.5662,33.26
10.391671,21.3222,-1.7153,29.3818,36.34
10.400213,18.7998,-4.4152,31.8066,37.21
10.41583,16.7376,-9.0186,33.5401,38.55
10.423954,18.9677,-10.5105,32.8611,39.37
10.431841,20.7132,-11.6617,33.365,40.97
10.441081,21.4489,-13.5554,33.1093,41.71
10.448217,19.0572,-17.0219,30.0287,39.43
10.464003,11.8243,-22.0891,23.9476,34.66
10.475754,8.3365,-23.497,21.5611,32.96
10.480022,4.9915,-24.2411,18.1974,30.72
10.495721,3.5892,-26.9775,12.9516,30.14
10.504358,3.5625,-27.6383,12.303,30.46
10.513961,4.5796,-27.305,11.6345,30.03
10.521809,6.2924,-28.3253,10.4935,30.86
10.529527,7.7886,-30.1884,8.7313,32.38
10.541433,9.6118,-32.2973,7.884,34.61
10.5487,10.3916,-34.076,8.4962,36.62
10.559614,8.9549,-34.5913,10.2935,37.18
10.572563,7.0625,-35.2264,11.5617,37.74
10.580791,6.4473,-35.0196,13.1306,37.95
10.589741,5.3618,-35.2381,15.9571,39.05
10.60005,5.1839,-34.1314,19.4395,39.62
10.616192,5.0578,-32.8505,19.476,38.52
10.623707,5.8672,-31.7162,17.4844,36.69
10.631774,6.5835,-30.6231,14.6209,34.57
10.639889,7.2841,-29.5107,12.2037,32.75
10.647954,7.9764,-28.7113,10.9101,31.73
10.663744,8.1342,-29.514,12.2862,32.99
10.671989,7.9748,-31.6025,15.6372,36.15
10.680197,5.0512,-35.3579,21.0709,41.47
10.689502,1.399,-38.6266,28.8781,48.25
10.704162,-6.7908,-28.2645,36.8157,46.91
10.713163,-2.0783,-26.7996,39.2885,47.6
10.722259,2.7671,-33.3117,39.614,51.83
10.727934,3.9007,-31.6802,37.0014,48.87
10.743649,3.0926,-15.1081,14.622,21.25
10.75703,0.3745,-10.0883,7.1444,12.37
10.760901,-0.8911,-8.853,6.6991,11.14
10.769929,-2.0332,-8.3235,6.8105,10.95
10.783994,-4.243,-7.1635,6.3876,10.49
10.795544,-5.2978,-6.5524,6.0582,10.38
10.800071,-6.2692,-5.9726,5.5834,10.3
10.815657,-8.0409,-4.7849,4.3568,10.32
10.823593,-8.7674,-4.2303,3.6524,10.4
10.831838,-9.3828,-3.7093,2.9108,10.5
10.839896,-9.8715,-3.1919,2.2039,10.61
10.847801,-10.2118,-2.7159,1.418,10.66
10.863757,-7.7215,-2.7944,1.4066,8.33
10.871245,69.3731,-76.9128,74.8681,127.8
10.880261,70.0432,-77.34,73.3963,127.57
10.887956,25.188,-77.9887,72.0549,109.13
10.903981,-20.7135,8.4449,68.5258,72.08
10.913017,-6.0258,12.726,28.5267,31.81
10.920869,-1.0244,7.0852,8.111,10.82
10.928321,-0.6623,-0.6276,-0.2623,0.95
10.946729,-5.3859,-6.6964,-1.3149,8.69
10.955255,-4.9659,-6.215,-1.9702,8.2
10.962465,-4.724,-4.3947,-1.3226,6.59
10.97422,-5.4043,-2.1594,-0.6016,5.85
10.986459,-8.1356,1.1236,-1.8989,8.43
10.995591,-8.4617,1.7091,-3.1485,9.19
11.003077,-8.4691,1.9519,-3.7621,9.47
11.007945,-8.5039,2.1147,-3.7467,9.53
11.023095,-8.5617,2.6757,-2.597,9.34
11.031448,-8.5698,2.9961,-1.4788,9.2
11.039889,-8.0849,3.24,0.5776,8.73
11.04832,-7.0569,3.2315,3.4733,8.5
11.063793,-4.6711,0.9655,3.6933,6.03
11.071785,-5.2126,-0.8386,2.3868,5.79
11.080926,-5.3849,-2.2148,2.2457,6.24
11.098502,-4.6581,-4.6525,4.3867,7.91
11.103991,-5.1809,-4.2223,4.4063,8.01
11.112253,-5.7279,-2.7322,4.1888,7.6
11.120282,-5.7709,-1.3812,5.5657,8.14
11.127827,-5.1721,-0.1568,5.3739,7.46
11.138488,-3.9621,3.7703,1.0687,5.57
11.151794,-1.4608,7.9048,8.9477,12.03
11.161793,-0.9643,1.745,9.8507,10.05
11.169217,-2.8028,-0.0481,7.2861,7.81
11.184433,-4.8576,1.9005,1.5525,5.44
11.191101,-4.5491,2.7247,1.4696,5.5
11.199509,-4.187,2.7385,1.7208,5.29
11.207813,-4.4905,2.6702,2.2212,5.68
11.224153,-4.77,1.904,3.5414,6.24
11.231495,-4.2533,2.0601,3.2467,5.73
11.240279,-4.3125,1.6238,3.3744,5.71
11.255627,-4.5155,1.1165,4.0038,6.14
11.263854,-4.4871,0.8099,3.7503,5.9
11.27171,-4.6113,0.7066,3.441,5.8
11.280225,-4.7185,0.5454,3.4354,5.86
11.287919,-4.699,0.4077,3.5186,5.88
11.298737,-4.6458,0.291,3.5871,5.88
11.311858,-4.6457,0.1907,3.6367,5.9
11.320872,-4.6343,0.1756,3.6249,5.89
11.33,-4.6183,0.2054,3.6135,5.87
11.338103,-4.5975,0.335,3.5732,5.83
11.351376,-4.5182,0.7202,3.4836,5.75
11.363511,-4.4953,0.8848,3.4243,5.72
11.372902,-4.4436,1.0613,3.4057,5.7
11.379561,-4.4061,1.183,3.4037,5.69
11.388537,-4.3924,1.2737,3.3729,5.68
11.400558,-4.3526,1.3555,3.3037,5.63
11.416478,-4.3305,1.2422,3.242,5.55
11.423965,-4.3222,1.0829,3.25,5.52
11.431928,-4.299,0.9499,3.2149,5.45
11.440273,-4.2993,0.7958,3.2085,5.42
11.455726,-4.2698,0.5793,3.16,5.34
11.46352,-4.2523,0.493,3.092,5.28
11.472031,-4.2155,0.481,3.0412,5.22
11.479941,-4.1811,0.4812,3.0292,5.19
11.495779,-4.0814,0.6251,2.921,5.06
11.504164,-4.0299,0.7516,2.8528,4.99
11.511893,-3.9781,0.8276,2.7727,4.92
11.521389,-3.902,0.9152,2.707,4.84
11.528422,-3.8492,0.9954,2.6532,4.78
11.543443,-3.6751,0.9817,2.4651,4.53
11.55524,-3.5949,0.9489,2.4095,4.43
11.562321,-3.5328,0.8462,2.3023,4.3
11.571094,-3.4722,0.7438,2.2251,4.19
11.580042,-3.4106,0.632,2.1776,4.1
11.58806,-3.3356,0.5348,2.1284,3.99
11.599929,-3.197,0.4074,1.9881,3.79
11.607803,-3.1052,0.3792,1.8926,3.66
11.623511,-2.936,0.4143,1.7244,3.43
11.632103,-2.8155,0.4822,1.6541,3.3
11.640057,-2.7038,0.5326,1.5681,3.17
11.647812,-2.6008,0.5822,1.4712,3.04
11.663225,-2.4012,0.6264,1.297,2.8
11.671195,-2.2973,0.623,1.2314,2.68
11.68028,-2.2044,0.5854,1.1694,2.56
11.68815,-2.1225,0.5164,1.0988,2.45
11.703779,-1.9636,0.35,1.0142,2.24
11.713502,-1.8628,0.282,0.9427,2.11
11.721385,-1.7926,0.2149,0.9063,2.02
11.729914,-1.6929,0.1655,0.8376,1.9
11.738243,-1.5853,0.1387,0.7726,1.77
11.752025,-1.3681,0.1589,0.6609,1.53
11.763706,-1.2466,0.1906,0.5782,1.39
11.771099,-1.1411,0.2476,0.5231,1.28
11.778548,-1.0254,0.2722,0.4547,1.15
11.7925,-0.8184,0.2858,0.3417,0.93
11.800072,-0.7404,0.2694,0.3067,0.85
11.807977,-0.6823,0.2229,0.2739,0.77
11.823752,-0.5704,0.1062,0.2345,0.63
11.83135,-0.5171,0.0558,0.2171,0.56
11.840031,-0.474,-0.0041,0.2025,0.52
11.847962,-0.4379,-0.0326,0.1806,0.47
11.863599,-0.3448,-0.0414,0.1599,0.38
11.872323,-0.311,-0.0322,0.1461,0.35
11.880401,-0.2625,0.0158,0.1247,0.29
11.888347,-0.2341,0.0587,0.0937,0.26
11.904975,-0.1984,0.1292,0.0651,0.25
11.915029,-0.1725,0.1471,0.0667,0.24
11.922484,-0.1748,0.143,0.0523,0.23
11.930028,-0.1712,0.1177,0.0576,0.22
11.944187,-0.1738,0.0532,0.0764,0.2
11.957162,-0.1585,0.0076,0.0684,0.17
11.972132,-0.1536,-0.0252,0.0608,0.17
11.972261,-0.1469,-0.0574,0.0701,0.17
11.979621,-0.136,-0.0771,0.0774,0.17
11.990972,-0.1157,-0.0487,0.0565,0.14
11.999884,-0.0969,-0.0128,0.0644,0.12
12.015612,-0.0962,0.0536,0.0375,0.12
12.024184,-0.0953,0.0744,0.0242,0.12
12.03174,-0.0921,0.0951,0.0398,0.14
12.041321,-0.0984,0.1012,0.0505,0.15
12.055786,-0.0901,0.0702,0.041,0.12
12.063702,-0.092,0.0307,0.0447,0.11
12.07286,-0.0941,-0.0037,0.0484,0.11
12.080117,-0.0844,-0.0329,0.0546,0.11
12.090674,-0.082,-0.0547,0.049,0.11
12.105358,-0.0754,-0.0642,0.045,0.11
12.116208,-0.0782,-0.0425,0.0443,0.1
12.119442,-0.0644,-0.0091,0.0412,0.08
12.128078,-0.0771,0.0123,0.0358,0.09
12.143405,-0.0619,0.0787,0.0202,0.1
12.152544,-0.07,0.0759,0.0316,0.11
12.161636,-0.0686,0.08,0.0262,0.11
12.169534,-0.0599,0.0578,0.0304,0.09
12.178027,-0.0585,0.0475,0.0323,0.08
12.192258,-0.0548,0.0207,0.0246,0.06
12.203231,-0.0499,-0.0302,0.0309,0.07
12.215703,-0.0551,-0.0565,0.0445,0.09
12.22368,-0.0444,-0.0517,0.0417,0.08
12.231616,-0.0481,-0.0396,0.0365,0.07
12.239679,-0.0591,-0.0085,0.0337,0.07
12.256035,-0.0643,0.0319,0.033,0.08
12.263234,-0.0443,0.0485,0.0207,0.07
12.271833,-0.0577,0.0674,0.0299,0.09
12.28026,-0.0378,0.0717,0.0368,0.09
12.287798,-0.0514,0.0498,0.0173,0.07
12.302902,-0.0306,0.0181,0.0263,0.04
12.31391,-0.0419,-0.0061,0.0165,0.05
12.321905,-0.0341,-0.0349,0.0258,0.06
12.329882,-0.0359,-0.0445,0.0208,0.06
12.343773,-0.0565,-0.0373,0.03,0.07
12.356915,-0.0463,-0.0301,0.0274,0.06
12.360598,-0.0433,-0.0062,0.02,0.05
12.371472,-0.0499,0.0128,0.027,0.06
12.37923,-0.0421,0.0318,0.0315,0.06
12.388265,-0.0487,0.0435,0.0193,0.07
12.400161,-0.0263,0.0599,0.0214,0.07
12.415837,-0.0227,0.0234,0.0137,0.04
12.423373,-0.0269,0.0112,0.0159,0.03
12.431683,-0.0265,-0.0056,0.011,0.03
12.439868,-0.0262,-0.0344,0.0253,0.05
12.447814,-0.0354,-0.0344,0.0203,0.05
12.463803,-0.0443,-0.0274,0.0296,0.06
12.474051,-0.044,-0.0155,0.0247,0.05
12.479764,-0.046,-0.0036,0.0341,0.06
12.495751,-0.0332,0.0226,0.0315,0.05
12.503829,-0.0306,0.044,0.0122,0.05
12.512388,-0.0301,0.0342,0.0049,0.05
12.522943,-0.0153,0.0436,0.0071,0.05
12.530879,-0.0151,0.0412,0.0094,0.04
12.538368,-0.0222,0.0173,0.0166,0.03
12.551725,-0.0288,-0.0258,0.0211,0.04
12.563995,-0.0237,-0.0211,0.0186,0.04
12.570953,-0.0378,-0.0307,0.0305,0.06
12.579183,-0.0377,-0.0355,0.0185,0.05
12.591935,-0.0521,0.036,0.0041,0.06
12.599936,-0.0937,0.0348,-0.077,0.13
12.607938,-0.0433,-0.0041,-0.0052,0.04
12.623409,0.0095,0.0457,0.1001,0.11
12.631486,0.0096,-0.0071,0.0425,0.04
12.641108,-0.0166,0.0166,-0.0174,0.03
12.648555,-0.0143,0.0118,-0.0556,0.06
12.66372,-0.043,-0.0363,0.0497,0.08
12.671853,-0.0428,-0.0221,0.0568,0.07
12.681054,0.0225,-0.0626,0.059,0.09
12.688292,-0.0585,-0.0097,0.0876,0.11
12.704232,-0.0272,0.0041,-0.0897,0.09
12.713612,-0.0417,0.1044,0.054,0.12
12.720228,-0.0809,0.0914,0.0184,0.12
12.731249,0.0411,0.0667,0.0112,0.08
12.744154,-0.0397,0.1149,-0.0504,0.13
12.752189,-0.0171,-0.0084,-0.0691,0.07
12.760896,-0.0019,0.0287,-0.0279,0.04
12.769175,-0.0189,0.0219,-0.0222,0.04
12.783675,-0.0609,-0.0314,0.0206,0.07
12.791256,-0.0894,-0.0348,-0.0137,0.1
12.804543,-0.0921,-0.0077,-0.0358,0.1
12.80801,-0.0749,-0.0043,0.0303,0.08
12.824201,-0.0463,0.0605,0.0073,0.08
12.831651,-0.0978,0.0582,-0.0289,0.12
12.844841,-0.2026,0.119,-0.1568,0.28
12.855279,-0.3311,0.1134,-0.3931,0.53
12.863992,-0.1777,0.1071,-0.1732,0.27
12.871494,-0.0553,0.2175,-0.021,0.23
12.880612,0.0078,0.2981,0.0242,0.3
12.891409,0.1896,0.2494,0.077,0.32
12.904809,0.1496,0.2326,0.0337,0.28
12.916604,0.2786,0.2145,-0.0944,0.36
12.920324,0.3173,0.1148,-0.2877,0.44
12.929912,0.2459,0.0603,-0.5992,0.65
12.939201,0.191,0.1293,-0.8963,0.93
12.955587,0.384,0.3397,-0.5192,0.73
12.963889,0.3292,0.1484,-0.3011,0.47
12.971994,-0.1249,0.0518,-0.0736,0.15
12.979639,-0.3162,-0.0636,0.2714,0.42
12.99579,0.1353,-0.3778,1.1713,1.24
13.006199,-0.1111,-0.3627,1.3179,1.37
13.015951,0.2828,-0.6511,2.0395,2.16
13.024017,1.2773,-0.2795,1.4183,1.93
13.031881,-0.2902,0.0631,1.2024,1.24
13.039977,-0.917,-0.4846,0.5689,1.18
13.055906,0.2882,-0.9745,0.3597,1.08
13.063219,0.8462,-1.2259,1.1928,1.91
13.074666,0.5697,-1.4918,2.1592,2.69
13.082715,0.3994,-1.6678,2.514,3.04
13.089768,1.2504,-1.9452,2.7198,3.57
13.103483,3.1828,-1.5527,2.0674,4.1
13.111281,3.3946,-1.4332,2.1547,4.27
13.120026,3.8743,-1.054,2.1111,4.54
13.127916,3.633,-0.6809,1.9513,4.18
13.143967,-1.2405,1.3348,3.2592,3.73
13.152274,-2.6679,2.223,3.8402,5.18
13.160229,-3.9567,2.9417,4.5339,6.7
13.169113,-4.3301,3.3285,4.6601,7.18
13.183648,-2.1878,2.4132,4.1917,5.31
13.195305,-0.363,1.1877,4.1645,4.35
13.202413,2.7142,-0.0381,4.1269,4.94
13.207799,3.9715,-1.1514,4.7124,6.27
13.223656,5.0651,-4.3468,4.2104,7.89
13.231858,3.1645,-0.7854,2.6389,4.19
13.240182,-1.4793,2.3162,2.7917,3.92
13.247771,-3.1362,2.6974,3.1027,5.17
13.263795,-0.4614,-0.1453,3.8507,3.88
13.271941,0.6379,-1.009,5.2397,5.37
13.280051,0.8522,-1.0399,5.3084,5.48
13.295732,0.1042,0.2572,5.0838,5.09
13.303734,-0.3511,-0.0575,4.331,4.35
13.311964,-0.6105,-0.0091,3.7887,3.84
13.320813,-0.9685,0.0968,3.5623,3.69
13.328987,-1.1267,0.0772,3.3527,3.54
13.338993,-1.0164,0.0852,3.2612,3.42
13.351913,-0.4762,0.0723,3.506,3.54
13.363198,-0.1243,0.1056,3.8698,3.87
13.371528,0.0173,0.1064,4.2461,4.25
13.379033,0.0456,-0.0553,4.5156,4.52
13.391872,-0.1166,-0.7411,3.8393,3.91
13.404774,0.1735,-0.4837,3.284,3.32
13.415716,-0.0039,-0.2141,2.7878,2.8
13.428441,-0.3438,-0.3296,2.4745,2.52
13.431068,-0.7697,-0.533,2.291,2.47
13.440272,-1.0102,-0.6332,2.2228,2.52
13.448081,-0.7394,-0.5054,2.2768,2.45
13.46397,0.6846,-0.311,1.9536,2.09
13.474965,1.2471,-0.4137,1.6344,2.1
13.480456,1.5803,-0.6174,1.2057,2.08
13.488389,1.5832,-0.7583,0.795,1.93
13.504028,0.9867,-0.8822,-0.0442,1.32
13.511803,0.7591,-0.9222,-0.4963,1.29
13.520123,0.589,-0.9252,-0.8108,1.36
13.528886,0.3529,-0.8864,-0.8595,1.28
13.538434,0.2023,-0.743,-0.6177,0.99
13.551932,0.3618,-0.6375,-0.1407,0.75
13.563946,0.5952,-0.4544,-0.0996,0.76
13.571621,0.7373,-0.317,-0.0878,0.81
13.579229,0.8287,-0.3303,-0.1539,0.91
13.591256,1.1968,-0.4911,-0.756,1.5
13.604264,1.3087,-0.7566,-1.338,2.02
13.615787,1.0396,-1.1385,-2.3682,2.83
13.623799,0.8356,-1.2585,-2.6484,3.05
13.632213,0.5069,-1.2019,-2.7047,3
13.640861,0.2591,-1.1082,-2.6759,2.91
13.649752,0.2471,-1.0635,-2.6534,2.87
13.664753,0.5937,-0.7579,-2.5252,2.7
13.671966,0.745,-0.5373,-2.4151,2.58
13.682803,0.9656,-0.3934,-2.3773,2.6
13.691166,1.1915,-0.4316,-2.3648,2.68
13.70368,0.7936,-0.3626,-2.721,2.86
13.711759,0.942,-0.6956,-2.9445,3.17
13.720037,1.153,-0.9692,-3.0612,3.41
13.728314,1.2584,-1.2046,-3.1827,3.63
13.737948,1.2078,-1.3301,-3.2053,3.67
13.75118,0.7044,-1.1413,-2.6837,3
13.762727,0.3285,-0.7666,-2.1754,2.33
13.771434,0.0853,-0.4192,-1.7378,1.79
13.779082,0.1418,-0.1173,-1.4424,1.45
13.791627,0.7227,-0.0318,-1.5779,1.74
13.805117,0.8175,-0.3031,-1.8104,2.01
13.815843,0.8246,-0.6986,-2.6865,2.9
13.823768,0.6887,-0.8052,-3.0479,3.23
13.831718,0.6154,-0.876,-3.3945,3.56
13.839795,0.6411,-0.8359,-3.6163,3.77
13.847816,0.6637,-0.6516,-3.6305,3.75
13.863303,0.4055,-0.1454,-3.0806,3.11
13.872377,0.2747,0.1238,-2.761,2.78
13.8804,0.0995,0.3514,-2.3978,2.43
13.888512,0.0055,0.448,-2.0583,2.11
13.902976,0.2904,0.2266,-1.1966,1.25
13.913461,0.5337,0.0292,-0.8523,1.01
13.921683,0.6559,-0.2008,-0.6581,0.95
13.9298,0.6688,-0.3248,-0.6804,1.01
13.938227,0.506,-0.3871,-0.9167,1.12
13.95169,0.4417,-0.4503,-1.59,1.71
13.963175,0.4682,-0.2797,-1.7521,1.84
13.973246,0.2453,-0.2598,-1.7465,1.78
13.980558,-0.0908,-0.2339,-1.6477,1.67
13.991824,-0.3917,0.1199,-1.1625,1.23
14.005863,-0.3459,0.1931,-0.7593,0.86
14.016196,-0.0161,0.1611,-0.1742,0.24
14.023423,0.1253,0.0114,0.0374,0.13
14.032097,0.1801,-0.2247,0.1061,0.31
14.039996,0.2,-0.4604,-0.0324,0.5
14.056053,0.2239,-0.506,-0.6972,0.89
14.063768,0.0678,-0.4451,-1.0035,1.1
14.071276,0.0434,-0.2458,-1.2257,1.25
14.07994,-0.12,-0.0668,-1.3733,1.38
14.088008,-0.4774,0.0674,-1.43,1.51
14.103821,-0.7195,0.1783,-1.0552,1.29
14.112428,-0.4079,0.1978,-0.8343,0.95
14.127489,-0.0598,0.1308,-0.7138,0.73
14.13572,0.3443,-0.0493,-0.669,0.75
14.144135,0.3474,-0.0282,-0.685,0.77
14.151964,0.1536,0.0098,-0.7202,0.74
14.160282,-0.1145,-0.0022,-0.8082,0.82
14.168853,-0.2615,-0.0472,-0.9297,0.97
14.183143,-0.19,0.0003,-1.3744,1.39
14.196404,-0.3141,0.0005,-1.5876,1.62
14.204485,-0.5144,-0.0274,-1.727,1.8
14.207879,-0.5634,-0.0442,-1.757,1.85
14.22317,-0.593,0.1248,-1.388,1.51
14.231416,-0.4126,0.1914,-1.1179,1.21
14.239697,-0.2829,0.2035,-0.8765,0.94
14.255798,-0.1851,0.2512,-0.5068,0.6
14.263725,-0.0832,0.2273,-0.5099,0.56
14.271777,-0.0956,0.159,-0.5001,0.53
14.280827,-0.1138,0.0445,-0.5256,0.54
14.296114,-0.2734,-0.2228,-0.693,0.78
14.303752,-0.3642,-0.2434,-0.85,0.96
14.311763,-0.4816,-0.1735,-0.9021,1.04
14.319939,-0.413,-0.0483,-0.9666,1.05
14.330221,-0.3776,-0.0267,-0.9885,1.06
14.338358,-0.2215,-0.0583,-0.9893,1.02
14.351861,-0.2124,-0.1829,-0.9692,1.01
14.364824,-0.3301,-0.2572,-0.9074,1
14.373525,-0.4057,-0.2094,-0.8125,0.93
14.381199,-0.4385,-0.1185,-0.6911,0.83
14.388697,-0.3141,-0.0222,-0.557,0.64
14.40009,0.4258,0.3616,-0.765,0.95
14.412561,0.7848,0.5357,-0.8914,1.3
14.420549,2.2235,1.1634,-1.299,2.83
14.431619,1.2891,0.8661,-1.2795,2.01
14.440266,0.563,0.5973,-1.3038,1.54
14.455772,-0.1662,-0.6168,-1.2191,1.38
14.463764,-0.4014,-0.907,-1.1586,1.53
14.471897,-0.8064,-0.9218,-0.8775,1.51
14.479884,-1.0583,-0.7133,-0.5029,1.37
14.488801,-0.8348,-0.4728,-0.2305,0.99
14.503368,0.1698,-0.0643,0.1455,0.23
14.512629,0.4089,0.0168,0.2652,0.49
14.52216,0.447,0.0971,0.2668,0.53
14.529921,0.3462,0.0561,0.1219,0.37
14.538023,0.186,-0.0114,0.0073,0.19
14.551328,-0.1132,-0.1018,-0.2579,0.3
14.564192,-0.2683,-0.0807,-0.2539,0.38
14.576378,-0.3908,-0.0153,-0.2471,0.46
14.589608,-0.3799,0.1266,-0.1972,0.45
14.598752,-0.2876,0.158,-0.2119,0.39
14.60161,-0.1964,0.1737,-0.2893,0.39
14.615826,-0.1736,0.1241,-0.4028,0.46
14.623999,-0.1377,0.0942,-0.4226,0.45
14.63205,-0.1244,0.173,-0.3715,0.43
14.64029,-0.1176,0.2494,-0.3209,0.42
14.648476,-0.0873,0.2872,-0.2277,0.38
14.663396,-0.1177,0.213,-0.0008,0.24
14.671779,-0.22,0.1934,0.0621,0.3
14.680937,-0.2487,0.1379,0.0849,0.3
14.688083,-0.2378,0.0763,0.0466,0.25
14.703869,-0.1104,0.045,-0.1185,0.17
14.714004,0.0887,0.0642,-0.2367,0.26
14.720209,0.2372,0.1023,-0.353,0.44
14.731675,0.2766,0.1402,-0.418,0.52
14.747387,0.194,0.1399,-0.3962,0.46
14.751568,0.1431,0.14,-0.2865,0.35
14.760335,0.0191,0.0558,-0.1366,0.15
14.768546,-0.0773,-0.0308,-0.0299,0.09
14.783758,-0.0519,-0.1165,0.098,0.16
14.796932,-0.0152,-0.0378,0.1608,0.17
14.799663,0.0042,0.0844,0.1553,0.18
14.807911,0.027,0.1555,0.0501,0.17
14.821483,0.0489,0.1345,-0.0571,0.15
14.832242,0.0637,0.0969,-0.2171,0.25
14.839857,0.0678,0.1085,-0.232,0.26
14.847808,-0.0041,0.1039,-0.1543,0.19
14.863735,-0.1383,0.1533,0.1073,0.23
14.871132,-0.2058,0.1796,0.2197,0.35
14.880034,-0.2189,0.1859,0.2869,0.41
14.895552,-0.1767,0.177,0.1521,0.29
14.903525,-0.148,0.1826,0.0079,0.24
14.911752,-0.1486,0.16,-0.1813,0.28
14.920872,-0.133,0.1245,-0.3175,0.37
14.936303,-0.0403,0.0389,-0.4939,0.5
14.944157,0.0389,0.027,-0.4032,0.41
14.953555,0.0336,0.0366,-0.2725,0.28
14.961831,-0.0482,0.0147,-0.1088,0.12
14.970601,-0.1435,0.0235,0.1332,0.2
14.97899,-0.178,0.0354,0.3104,0.36
14.991611,-0.0935,0.0697,0.3347,0.35
15.004723,-0.0536,0.0504,0.1726,0.19
15.016195,-0.0867,-0.0191,-0.1198,0.15
15.02374,-0.076,0.0016,-0.2267,0.24
15.031309,-0.0653,0.0068,-0.2692,0.28
15.03999,-0.052,0.0206,-0.2356,0.24
15.047931,-0.0381,0.0069,-0.1545,0.16
15.064333,0.0305,0.0098,0.048,0.06
15.071505,0.0483,0.0661,0.0787,0.11
15.08029,0.0381,0.1069,0.1073,0.16
15.095909,-0.0889,0.0344,-0.0115,0.1
15.106127,-0.1545,0.0084,-0.0515,0.16
15.113766,-0.1434,0.0284,-0.1013,0.18
15.1202,-0.1218,0.045,-0.0964,0.16
15.130564,-0.1188,0.0373,-0.0228,0.13
15.137824,-0.1276,0.0191,0.1342,0.19
15.151859,-0.1331,0.0717,0.4959,0.52
15.160084,-0.0648,0.0933,0.5342,0.55
15.16836,-0.0203,0.0708,0.4394,0.45
15.183241,-0.0408,0.0432,0.0498,0.08
15.193509,-0.1193,0.0479,-0.2434,0.28
15.202214,-0.1224,0.0652,-0.4482,0.47
15.210576,-0.085,0.0561,-0.5963,0.6
15.223599,-0.0427,0.0222,-0.5566,0.56
15.231767,-0.0775,0.0548,-0.3208,0.33
15.241045,-0.1291,0.0632,-0.0785,0.16
15.256161,-0.1595,-0.0085,0.2474,0.29
15.263987,-0.1355,-0.0411,0.3559,0.38
15.272021,-0.111,-0.0543,0.3907,0.41
15.280114,-0.0331,-0.0137,0.3093,0.31
15.295726,-0.0071,0.0114,0.035,0.04
15.303539,0.0201,-0.0289,-0.1107,0.12
15.312252,-0.0068,-0.0843,-0.2728,0.29
15.320819,-0.0523,-0.1077,-0.3466,0.37
15.328739,-0.0826,-0.1047,-0.438,0.46
15.343761,-0.0464,-0.0478,-0.446,0.45
15.355466,-0.012,-0.0062,-0.3434,0.34
15.362409,-0.0266,0.023,-0.2223,0.23
15.370774,-0.1126,0.0168,-0.1012,0.15
15.380167,-0.1517,-0.0064,-0.0232,0.15
15.392638,-0.1075,-0.0703,0.0404,0.13
15.402897,-0.0397,-0.0551,0.0353,0.08
15.415978,-0.0431,-0.0157,0.003,0.05
15.423768,-0.089,-0.0009,0.0309,0.09
15.432845,-0.1256,0.021,0.1018,0.16
15.446867,-0.1742,-0.0129,0.1802,0.25
15.448387,-0.1986,-0.0407,0.2924,0.36
15.463313,-0.1864,-0.0469,0.3565,0.41
15.471854,-0.1954,-0.0156,0.2294,0.3
15.480582,-0.1973,-0.0168,0.0716,0.21
15.490957,-0.1706,-0.0481,-0.1169,0.21
15.50469,-0.0588,-0.1443,-0.4275,0.46
15.512229,-0.0745,-0.1271,-0.4932,0.51
15.520317,-0.0945,-0.0803,-0.4881,0.5
15.528881,-0.0944,-0.0169,-0.3528,0.37
15.543981,-0.0621,-0.0068,-0.0543,0.08
15.554075,-0.0194,-0.0299,0.1029,0.11
15.563383,0.044,-0.0471,0.2269,0.24
15.570984,0.106,-0.0292,0.2896,0.31
15.579006,0.054,-0.0056,0.2699,0.28
15.591882,-0.0849,0.0243,0.1999,0.22
15.604458,-0.1076,0.002,0.0922,0.14
15.608174,-0.0466,-0.0413,-0.0483,0.08
15.623465,0.0453,-0.0019,-0.3124,0.32
15.631808,0.0697,0.0365,-0.4195,0.43
15.639961,0.1022,0.0431,-0.4937,0.51
15.647821,0.1362,0.0595,-0.528,0.55
15.663957,0.1441,0.0538,-0.5317,0.55
15.671176,0.089,0.0259,-0.4777,0.49
15.680205,0.0073,0.0331,-0.3483,0.35
15.687948,-0.0602,0.0412,-0.2055,0.22
15.704173,-0.1226,0.0713,0.1465,0.2
15.712968,-0.1102,0.0405,0.2514,0.28
15.722165,-0.0677,-0.01,0.3253,0.33
15.730175,-0.0304,-0.0379,0.3566,0.36
15.744068,-0.1032,-0.0588,0.3835,0.4
15.75533,-0.1248,-0.0307,0.3482,0.37
15.762377,-0.0902,-0.0597,0.3469,0.36
15.771392,-0.0489,-0.0885,0.3344,0.35
15.779419,0.03,-0.1147,0.3296,0.35
15.792082,0.0727,-0.0957,0.2283,0.26
15.805444,-0.0024,-0.062,0.2034,0.21
15.808179,-0.0972,-0.0395,0.1431,0.18
15.823347,-0.2369,-0.0353,0.0064,0.24
15.831786,-0.2995,-0.0183,-0.0776,0.31
15.84028,-0.3506,0.0247,-0.1694,0.39
15.848292,-0.3487,0.0485,-0.214,0.41
15.864251,-0.2168,0.0367,-0.2071,0.3
15.871859,-0.1847,0.0646,-0.1195,0.23
15.881129,-0.1754,0.0845,0.0157,0.2
15.888297,-0.1639,0.0932,0.0931,0.21
15.904116,-0.1435,0.0472,0.1742,0.23
15.912332,-0.0479,-0.0309,0.1616,0.17
15.92371,0.0422,-0.0997,0.1401,0.18
15.938159,0.0071,-0.058,0.0632,0.09
15.943851,-0.0289,0.0147,-0.0068,0.03
15.954535,-0.0988,0.06,-0.0981,0.15
15.962875,-0.1512,0.0533,-0.1776,0.24
15.968198,-0.1901,0.0534,-0.2315,0.3
15.983748,-0.1637,0.0308,-0.2452,0.3
15.994272,-0.1864,-0.0152,-0.2148,0.28
16.003269,-0.2087,-0.0017,-0.1108,0.24
16.01155,-0.1689,0.0128,-0.0621,0.18
16.019837,-0.0945,0.0025,-0.0592,0.11
16.028022,-0.0734,-0.0309,-0.0206,0.08
16.040321,0.0249,-0.0039,0.2072,0.21
16.05609,-0.0254,0.0491,0.4414,0.44
16.06387,-0.0842,0.0214,0.4579,0.47
16.071791,-0.1637,0.0364,0.4275,0.46
16.080359,-0.1735,0.0568,0.3281,0.38
16.088685,-0.1661,0.0854,0.2196,0.29
16.103442,-0.0723,0.1252,0.0938,0.17
16.112375,-0.0884,0.1154,0.0548,0.16
16.128779,-0.0813,0.094,0.0538,0.14
16.128869,-0.0392,0.0655,0.0383,0.09
16.141596,-0.0328,0.0441,0.018,0.06
16.151818,-0.0832,-0.0078,0.0275,0.09
16.161477,-0.0985,-0.0215,0.0573,0.12
16.168607,-0.1042,-0.0259,0.0848,0.14
16.184186,-0.0194,-0.074,0.0492,0.09
16.194231,0.0675,-0.0814,-0.0019,0.11
16.201608,0.0568,-0.1169,-0.0388,0.14
16.216244,0.0172,-0.1011,-0.0512,0.11
16.22417,0.0354,-0.0693,-0.0481,0.09
16.232654,0.0279,-0.0565,-0.0883,0.11
16.240225,0.0408,-0.0653,-0.1333,0.15
16.256175,0.012,-0.0826,-0.1659,0.19
16.264171,-0.0094,-0.0595,-0.1369,0.15
16.272181,-0.066,-0.019,-0.0961,0.12
16.280594,-0.0627,0.0413,-0.0315,0.08
16.288216,-0.0115,0.0467,-0.0006,0.05
16.304158,0.0161,0.0003,0.0276,0.03
16.315809,0.03,0.0002,0.0132,0.03
16.320349,0.0215,-0.032,-0.0272,0.05
16.330136,0.0227,-0.0626,-0.0531,0.09
16.338752,0.0675,-0.0819,-0.0907,0.14
16.351996,0.1299,-0.0663,-0.1568,0.21
16.36298,0.1329,-0.0569,-0.1688,0.22
16.371665,0.1233,-0.0628,-0.1933,0.24
16.379598,0.1091,-0.1031,-0.1918,0.24
16.392142,0.0979,-0.1001,-0.0628,0.15
16.405338,0.1196,-0.0744,-0.0234,0.14
16.413155,0.1254,-0.035,0.0233,0.13
16.422219,0.1027,-0.0036,0.0416,0.11
16.432768,0.0387,-0.0174,0.0167,0.05
16.4405,0.0254,-0.0281,0.0905,0.1
16.44856,0.0053,-0.029,0.1355,0.14
16.463827,0.0277,-0.0136,0.2611,0.26
16.472536,0.0426,-0.0122,0.3155,0.32
16.48032,0.0074,-0.0041,0.3343,0.33
16.488243,-0.0389,0.0319,0.2983,0.3
16.504807,-0.1129,0.0797,0.1528,0.21
16.513739,-0.1228,0.0857,0.0933,0.18
16.522402,-0.1471,0.0898,0.0432,0.18
16.531048,-0.1613,0.0751,0.0481,0.18
16.537787,-0.1464,0.0697,0.0722,0.18
16.552739,0.0145,0.0822,0.1261,0.15
16.563781,0.0741,0.0543,0.0962,0.13
16.571389,0.1284,0.0783,0.0498,0.16
16.579839,0.1126,0.0874,0.0131,0.14
16.587837,-0.0048,0.0467,0.1279,0.14
16.600188,-0.0915,-0.0643,0.1645,0.2
16.611847,-0.0808,-0.0181,0.0675,0.11
16.623953,-0.0144,0.0411,-0.2223,0.23
16.631355,0.0247,-0.0464,-0.3058,0.31
16.640215,0.1313,-0.0886,-0.3779,0.41
16.648127,0.1758,-0.1199,-0.3961,0.45
16.664759,0.1032,-0.0189,-0.3268,0.34
16.671831,0.194,0.1607,-0.271,0.37
16.680902,0.1474,0.2563,-0.1856,0.35
16.696012,0.0295,0.0282,0.0877,0.1
16.703975,0.0978,-0.2472,0.1199,0.29
16.728031,0.0968,-0.3693,0.1193,0.4
